"success","timeout","failed_images","failed_audio","failed_video","trial_type","trial_index","time_elapsed","internal_node_id","rt","stimulus","response","task","item_name"
"true","false","[]","[]","[]","preload","0","1466","0.0-0.0","","","","",""
"","","","","","html-button-response","1","7396","0.0-1.0","5928","<div style=""font-size:32px;"">
               <p>Welcome to the experiment.</p> 
               <p>Tap ""START"" to begin.</p>
               </div>
               ","0","welcome",""
"true","","","","","fullscreen","2","9599","0.0-2.0","","","","",""
"","","","","","html-button-response","3","95613","0.0-3.0","86010","
    <div style=""font-size:24px;"">
    <div style='float: center;'><img src='img/un.png' width=""320"" height=""240""></img>  
    <p>In this part of the experiment, you will be shown a set of flags corresponding to UN member countries.</p>
    <p>You will be asked if you can name the country the flag belongs to.</p>
    <p>Tap YES if you recognize to which country the flag belongs to or NO if you do not.</p>     
    </div>
    <p>Tap ""START"" to begin.</p>
    </div>
    ","0","pretest_instructions",""
"","","","","","html-keyboard-response","4","96382","0.0-4.0-0.0","null","<div style=""font-size:120px;"">+</div>
              ","null","fixation",""
"","","","","","image-button-response","5","102933","0.0-4.0-1.0","6520","img/jo.png","1","pretest","JORDAN"
"","","","","","html-keyboard-response","6","103449","0.0-4.0-0.1","null","<div style=""font-size:120px;"">+</div>
              ","null","fixation",""
"","","","","","image-button-response","7","112052","0.0-4.0-1.1","8598","img/by.png","0","pretest","BELARUS"
"","","","","","html-keyboard-response","8","112554","0.0-4.0-0.2","null","<div style=""font-size:120px;"">+</div>
              ","null","fixation",""
"","","","","","image-button-response","9","120548","0.0-4.0-1.2","7990","img/bz.png","0","pretest","BELIZE"
"","","","","","html-keyboard-response","10","121052","0.0-4.0-0.3","null","<div style=""font-size:120px;"">+</div>
              ","null","fixation",""
"","","","","","image-button-response","11","134533","0.0-4.0-1.3","13477","img/mh.png","1","pretest","MARSHALL ISLANDS"
"","","","","","html-keyboard-response","12","135050","0.0-4.0-0.4","null","<div style=""font-size:120px;"">+</div>
              ","null","fixation",""
"","","","","","image-button-response","13","142268","0.0-4.0-1.4","7215","img/ge.png","0","pretest","GEORGIA"
"","","","","","html-keyboard-response","14","142783","0.0-4.0-0.5","null","<div style=""font-size:120px;"">+</div>
              ","null","fixation",""
"","","","","","image-button-response","15","150956","0.0-4.0-1.5","8169","img/bb.png","0","pretest","BARBADOS"
"","","","","","html-keyboard-response","16","151469","0.0-4.0-0.6","null","<div style=""font-size:120px;"">+</div>
              ","null","fixation",""
"","","","","","image-button-response","17","158636","0.0-4.0-1.6","7164","img/sk.png","0","pretest","SLOVAKIA"
"","","","","","html-keyboard-response","18","159150","0.0-4.0-0.7","null","<div style=""font-size:120px;"">+</div>
              ","null","fixation",""
"","","","","","image-button-response","19","165867","0.0-4.0-1.7","6713","img/cf.png","0","pretest","CENTRAL AFRICAN REPUBLIC"
"","","","","","html-keyboard-response","20","166378","0.0-4.0-0.8","null","<div style=""font-size:120px;"">+</div>
              ","null","fixation",""
"","","","","","image-button-response","21","175764","0.0-4.0-1.8","9383","img/li.png","0","pretest","LIECHTENSTEIN"
"","","","","","html-keyboard-response","22","176275","0.0-4.0-0.9","null","<div style=""font-size:120px;"">+</div>
              ","null","fixation",""
"","","","","","image-button-response","23","189403","0.0-4.0-1.9","13125","img/kz.png","0","pretest","KAZAKHSTAN"
"","","","","","html-keyboard-response","24","189905","0.0-4.0-0.10","null","<div style=""font-size:120px;"">+</div>
              ","null","fixation",""
"","","","","","image-button-response","25","205035","0.0-4.0-1.10","15127","img/cz.png","0","pretest","CZECHIA"
"","","","","","html-keyboard-response","26","205540","0.0-4.0-0.11","null","<div style=""font-size:120px;"">+</div>
              ","null","fixation",""
"","","","","","image-button-response","27","215572","0.0-4.0-1.11","10029","img/la.png","0","pretest","LAOS"
"","","","","","html-keyboard-response","28","216085","0.0-4.0-0.12","null","<div style=""font-size:120px;"">+</div>
              ","null","fixation",""
"","","","","","image-button-response","29","226187","0.0-4.0-1.12","10101","img/ad.png","0","pretest","ANDORRA"
"","","","","","html-keyboard-response","30","226700","0.0-4.0-0.13","null","<div style=""font-size:120px;"">+</div>
              ","null","fixation",""
"","","","","","image-button-response","31","236866","0.0-4.0-1.13","10158","img/pk.png","0","pretest","PAKISTAN"
"","","","","","html-keyboard-response","32","237375","0.0-4.0-0.14","null","<div style=""font-size:120px;"">+</div>
              ","null","fixation",""
"","","","","","image-button-response","33","247780","0.0-4.0-1.14","10402","img/in.png","1","pretest","INDIA"
"","","","","","html-keyboard-response","34","248282","0.0-4.0-0.15","null","<div style=""font-size:120px;"">+</div>
              ","null","fixation",""
"","","","","","image-button-response","35","252885","0.0-4.0-1.15","4600","img/ch.png","1","pretest","SWITZERLAND"
"","","","","","html-keyboard-response","36","253399","0.0-4.0-0.16","null","<div style=""font-size:120px;"">+</div>
              ","null","fixation",""
"","","","","","image-button-response","37","260364","0.0-4.0-1.16","6961","img/do.png","1","pretest","DOMINICAN REPUBLIC"
"","","","","","html-keyboard-response","38","260869","0.0-4.0-0.17","null","<div style=""font-size:120px;"">+</div>
              ","null","fixation",""
"","","","","","image-button-response","39","264188","0.0-4.0-1.17","3316","img/rw.png","1","pretest","RWANDA"
"","","","","","html-keyboard-response","40","264700","0.0-4.0-0.18","null","<div style=""font-size:120px;"">+</div>
              ","null","fixation",""
"","","","","","image-button-response","41","269597","0.0-4.0-1.18","4894","img/kw.png","1","pretest","KUWAIT"
"","","","","","html-keyboard-response","42","270106","0.0-4.0-0.19","null","<div style=""font-size:120px;"">+</div>
              ","null","fixation",""
"","","","","","image-button-response","43","278876","0.0-4.0-1.19","8767","img/nl.png","1","pretest","NETHERLANDS"
"","","","","","html-button-response","44","280116","0.0-5.0","1237","<div style=""font-size:32px;"">
    <p>You can take a short break now.</p>
    <p>Please tap CONTINUE button when you are ready.</p>
    </div>","0","",""
"","","","","","html-button-response","45","281220","0.0-6.0","1103","
    <div style=""font-size:24px;"">
    <div style='float: center;'><img src='img/un.png' width=""320"" height=""240""></img> 
    <p>Now, you will perform a study session of the items .</p>
    <p>Each flag will appear followed by the country name in sets with a short break between sets.</p> 
    <p>Hit the NEXT button to move on to the next item.</p>    
    <p>You will practice on the whole list of items 4 times.</p>   
    </div>
    <p>Tap ""START"" to begin.</p>
    </div>
    ","0","",""
"","","","","","html-keyboard-response","46","282239","0.0-7.0-0.0","null","<div style=""font-size:120px;"">+</div>
              ","null","fixation",""
"","","","","","image-keyboard-response","47","283498","0.0-7.0-1.0","null","img/sk.png","null","study_pic","SLOVAKIA"
"","","","","","html-button-response","48","288620","0.0-7.0-2.0","5120","<div style=""font-size:72px;"">
        <p>SLOVAKIA</p>
        </div>","0","",""
"","","","","","html-keyboard-response","49","289134","0.0-7.0-0.1","null","<div style=""font-size:120px;"">+</div>
              ","null","fixation",""
"","","","","","image-keyboard-response","50","290399","0.0-7.0-1.1","null","img/cf.png","null","study_pic","CENTRAL AFRICAN REPUBLIC"
"","","","","","html-button-response","51","291291","0.0-7.0-2.1","891","<div style=""font-size:72px;"">
        <p>CENTRAL AFRICAN REPUBLIC</p>
        </div>","0","",""
"","","","","","html-keyboard-response","52","291806","0.0-7.0-0.2","null","<div style=""font-size:120px;"">+</div>
              ","null","fixation",""
"","","","","","image-keyboard-response","53","293064","0.0-7.0-1.2","null","img/li.png","null","study_pic","LIECHTENSTEIN"
"","","","","","html-button-response","54","294541","0.0-7.0-2.2","1475","<div style=""font-size:72px;"">
        <p>LIECHTENSTEIN</p>
        </div>","0","",""
"","","","","","html-keyboard-response","55","295054","0.0-7.0-0.3","null","<div style=""font-size:120px;"">+</div>
              ","null","fixation",""
"","","","","","image-keyboard-response","56","296322","0.0-7.0-1.3","null","img/mh.png","null","study_pic","MARSHALL ISLANDS"
"","","","","","html-button-response","57","297228","0.0-7.0-2.3","904","<div style=""font-size:72px;"">
        <p>MARSHALL ISLANDS</p>
        </div>","0","",""
"","","","","","html-keyboard-response","58","297741","0.0-7.0-0.4","null","<div style=""font-size:120px;"">+</div>
              ","null","fixation",""
"","","","","","image-keyboard-response","59","299013","0.0-7.0-1.4","null","img/by.png","null","study_pic","BELARUS"
"","","","","","html-button-response","60","299884","0.0-7.0-2.4","868","<div style=""font-size:72px;"">
        <p>BELARUS</p>
        </div>","0","",""
"","","","","","html-button-response","61","300604","0.0-8.0","717","<div style=""font-size:32px;"">
    <p>You can take a short break now.</p>
    <p>Please tap CONTINUE button when you are ready.</p>
    </div>","0","",""
"","","","","","html-keyboard-response","62","301120","0.0-9.0-0.0","null","<div style=""font-size:120px;"">+</div>
              ","null","fixation",""
"","","","","","image-keyboard-response","63","302377","0.0-9.0-1.0","null","img/jo.png","null","study_pic","JORDAN"
"","","","","","html-button-response","64","310540","0.0-9.0-2.0","8163","<div style=""font-size:72px;"">
        <p>JORDAN</p>
        </div>","0","",""
"","","","","","html-keyboard-response","65","311053","0.0-9.0-0.1","null","<div style=""font-size:120px;"">+</div>
              ","null","fixation",""
"","","","","","image-keyboard-response","66","312310","0.0-9.0-1.1","null","img/kz.png","null","study_pic","KAZAKHSTAN"
"","","","","","html-button-response","67","314148","0.0-9.0-2.1","1836","<div style=""font-size:72px;"">
        <p>KAZAKHSTAN</p>
        </div>","0","",""
"","","","","","html-keyboard-response","68","314654","0.0-9.0-0.2","null","<div style=""font-size:120px;"">+</div>
              ","null","fixation",""
"","","","","","image-keyboard-response","69","315908","0.0-9.0-1.2","null","img/ch.png","null","study_pic","SWITZERLAND"
"","","","","","html-button-response","70","316604","0.0-9.0-2.2","695","<div style=""font-size:72px;"">
        <p>SWITZERLAND</p>
        </div>","0","",""
"","","","","","html-keyboard-response","71","317114","0.0-9.0-0.3","null","<div style=""font-size:120px;"">+</div>
              ","null","fixation",""
"","","","","","image-keyboard-response","72","318368","0.0-9.0-1.3","null","img/pk.png","null","study_pic","PAKISTAN"
"","","","","","html-button-response","73","318963","0.0-9.0-2.3","594","<div style=""font-size:72px;"">
        <p>PAKISTAN</p>
        </div>","0","",""
"","","","","","html-keyboard-response","74","319470","0.0-9.0-0.4","null","<div style=""font-size:120px;"">+</div>
              ","null","fixation",""
"","","","","","image-keyboard-response","75","320730","0.0-9.0-1.4","null","img/in.png","null","study_pic","INDIA"
"","","","","","html-button-response","76","321908","0.0-9.0-2.4","1175","<div style=""font-size:72px;"">
        <p>INDIA</p>
        </div>","0","",""
"","","","","","html-button-response","77","322756","0.0-10.0","846","<div style=""font-size:32px;"">
    <p>You can take a short break now.</p>
    <p>Please tap CONTINUE button when you are ready.</p>
    </div>","0","",""
"","","","","","html-keyboard-response","78","323266","0.0-11.0-0.0","null","<div style=""font-size:120px;"">+</div>
              ","null","fixation",""
"","","","","","image-keyboard-response","79","324527","0.0-11.0-1.0","null","img/rw.png","null","study_pic","RWANDA"
"","","","","","html-button-response","80","326262","0.0-11.0-2.0","1733","<div style=""font-size:72px;"">
        <p>RWANDA</p>
        </div>","0","",""
"","","","","","html-keyboard-response","81","326767","0.0-11.0-0.1","null","<div style=""font-size:120px;"">+</div>
              ","null","fixation",""
"","","","","","image-keyboard-response","82","328027","0.0-11.0-1.1","null","img/do.png","null","study_pic","DOMINICAN REPUBLIC"
"","","","","","html-button-response","83","328956","0.0-11.0-2.1","927","<div style=""font-size:72px;"">
        <p>DOMINICAN REPUBLIC</p>
        </div>","0","",""
"","","","","","html-keyboard-response","84","329469","0.0-11.0-0.2","null","<div style=""font-size:120px;"">+</div>
              ","null","fixation",""
"","","","","","image-keyboard-response","85","330734","0.0-11.0-1.2","null","img/bz.png","null","study_pic","BELIZE"
"","","","","","html-button-response","86","331348","0.0-11.0-2.2","612","<div style=""font-size:72px;"">
        <p>BELIZE</p>
        </div>","0","",""
"","","","","","html-keyboard-response","87","331860","0.0-11.0-0.3","null","<div style=""font-size:120px;"">+</div>
              ","null","fixation",""
"","","","","","image-keyboard-response","88","333120","0.0-11.0-1.3","null","img/ad.png","null","study_pic","ANDORRA"
"","","","","","html-button-response","89","333749","0.0-11.0-2.3","628","<div style=""font-size:72px;"">
        <p>ANDORRA</p>
        </div>","0","",""
"","","","","","html-keyboard-response","90","334262","0.0-11.0-0.4","null","<div style=""font-size:120px;"">+</div>
              ","null","fixation",""
"","","","","","image-keyboard-response","91","335529","0.0-11.0-1.4","null","img/cz.png","null","study_pic","CZECHIA"
"","","","","","html-button-response","92","336356","0.0-11.0-2.4","825","<div style=""font-size:72px;"">
        <p>CZECHIA</p>
        </div>","0","",""
"","","","","","html-button-response","93","338395","0.0-12.0","2039","<div style=""font-size:32px;"">
    <p>You can take a short break now.</p>
    <p>Please tap CONTINUE button when you are ready.</p>
    </div>","0","",""
"","","","","","html-keyboard-response","94","338901","0.0-13.0-0.0","null","<div style=""font-size:120px;"">+</div>
              ","null","fixation",""
"","","","","","image-keyboard-response","95","340161","0.0-13.0-1.0","null","img/nl.png","null","study_pic","NETHERLANDS"
"","","","","","html-button-response","96","340540","0.0-13.0-2.0","377","<div style=""font-size:72px;"">
        <p>NETHERLANDS</p>
        </div>","0","",""
"","","","","","html-keyboard-response","97","341050","0.0-13.0-0.1","null","<div style=""font-size:120px;"">+</div>
              ","null","fixation",""
"","","","","","image-keyboard-response","98","342307","0.0-13.0-1.1","null","img/ge.png","null","study_pic","GEORGIA"
"","","","","","html-button-response","99","342757","0.0-13.0-2.1","449","<div style=""font-size:72px;"">
        <p>GEORGIA</p>
        </div>","0","",""
"","","","","","html-keyboard-response","100","343259","0.0-13.0-0.2","null","<div style=""font-size:120px;"">+</div>
              ","null","fixation",""
"","","","","","image-keyboard-response","101","344524","0.0-13.0-1.2","null","img/bb.png","null","study_pic","BARBADOS"
"","","","","","html-button-response","102","344916","0.0-13.0-2.2","391","<div style=""font-size:72px;"">
        <p>BARBADOS</p>
        </div>","0","",""
"","","","","","html-keyboard-response","103","345432","0.0-13.0-0.3","null","<div style=""font-size:120px;"">+</div>
              ","null","fixation",""
"","","","","","image-keyboard-response","104","346690","0.0-13.0-1.3","null","img/la.png","null","study_pic","LAOS"
"","","","","","html-button-response","105","347324","0.0-13.0-2.3","631","<div style=""font-size:72px;"">
        <p>LAOS</p>
        </div>","0","",""
"","","","","","html-keyboard-response","106","347832","0.0-13.0-0.4","null","<div style=""font-size:120px;"">+</div>
              ","null","fixation",""
"","","","","","image-keyboard-response","107","349085","0.0-13.0-1.4","null","img/kw.png","null","study_pic","KUWAIT"
"","","","","","html-button-response","108","349894","0.0-13.0-2.4","806","<div style=""font-size:72px;"">
        <p>KUWAIT</p>
        </div>","0","",""
"","","","","","html-button-response","109","351220","0.0-14.0","1325","<div style=""font-size:32px;"">
    <p>You can take a short break now.</p>
    <p>Please tap CONTINUE button when you are ready.</p>
    </div>","0","",""
"","","","","","html-keyboard-response","110","351729","0.0-15.0-0.0","null","<div style=""font-size:120px;"">+</div>
              ","null","fixation",""
"","","","","","image-keyboard-response","111","352984","0.0-15.0-1.0","null","img/cf.png","null","study_pic","CENTRAL AFRICAN REPUBLIC"
"","","","","","html-button-response","112","353932","0.0-15.0-2.0","946","<div style=""font-size:72px;"">
        <p>CENTRAL AFRICAN REPUBLIC</p>
        </div>","0","",""
"","","","","","html-keyboard-response","113","354438","0.0-15.0-0.1","null","<div style=""font-size:120px;"">+</div>
              ","null","fixation",""
"","","","","","image-keyboard-response","114","355694","0.0-15.0-1.1","null","img/kz.png","null","study_pic","KAZAKHSTAN"
"","","","","","html-button-response","115","356292","0.0-15.0-2.1","597","<div style=""font-size:72px;"">
        <p>KAZAKHSTAN</p>
        </div>","0","",""
"","","","","","html-keyboard-response","116","356794","0.0-15.0-0.2","null","<div style=""font-size:120px;"">+</div>
              ","null","fixation",""
"","","","","","image-keyboard-response","117","358059","0.0-15.0-1.2","null","img/bz.png","null","study_pic","BELIZE"
"","","","","","html-button-response","118","358612","0.0-15.0-2.2","552","<div style=""font-size:72px;"">
        <p>BELIZE</p>
        </div>","0","",""
"","","","","","html-keyboard-response","119","359122","0.0-15.0-0.3","null","<div style=""font-size:120px;"">+</div>
              ","null","fixation",""
"","","","","","image-keyboard-response","120","360375","0.0-15.0-1.3","null","img/by.png","null","study_pic","BELARUS"
"","","","","","html-button-response","121","361068","0.0-15.0-2.3","692","<div style=""font-size:72px;"">
        <p>BELARUS</p>
        </div>","0","",""
"","","","","","html-keyboard-response","122","361570","0.0-15.0-0.4","null","<div style=""font-size:120px;"">+</div>
              ","null","fixation",""
"","","","","","image-keyboard-response","123","362833","0.0-15.0-1.4","null","img/nl.png","null","study_pic","NETHERLANDS"
"","","","","","html-button-response","124","363588","0.0-15.0-2.4","753","<div style=""font-size:72px;"">
        <p>NETHERLANDS</p>
        </div>","0","",""
"","","","","","html-button-response","125","364556","0.0-16.0","967","<div style=""font-size:32px;"">
    <p>You can take a short break now.</p>
    <p>Please tap CONTINUE button when you are ready.</p>
    </div>","0","",""
"","","","","","html-keyboard-response","126","365066","0.0-17.0-0.0","null","<div style=""font-size:120px;"">+</div>
              ","null","fixation",""
"","","","","","image-keyboard-response","127","366325","0.0-17.0-1.0","null","img/rw.png","null","study_pic","RWANDA"
"","","","","","html-button-response","128","366948","0.0-17.0-2.0","622","<div style=""font-size:72px;"">
        <p>RWANDA</p>
        </div>","0","",""
"","","","","","html-keyboard-response","129","367457","0.0-17.0-0.1","null","<div style=""font-size:120px;"">+</div>
              ","null","fixation",""
"","","","","","image-keyboard-response","130","368717","0.0-17.0-1.1","null","img/sk.png","null","study_pic","SLOVAKIA"
"","","","","","html-button-response","131","369318","0.0-17.0-2.1","599","<div style=""font-size:72px;"">
        <p>SLOVAKIA</p>
        </div>","0","",""
"","","","","","html-keyboard-response","132","369827","0.0-17.0-0.2","null","<div style=""font-size:120px;"">+</div>
              ","null","fixation",""
"","","","","","image-keyboard-response","133","371087","0.0-17.0-1.2","null","img/ch.png","null","study_pic","SWITZERLAND"
"","","","","","html-button-response","134","372765","0.0-17.0-2.2","1675","<div style=""font-size:72px;"">
        <p>SWITZERLAND</p>
        </div>","0","",""
"","","","","","html-keyboard-response","135","373273","0.0-17.0-0.3","null","<div style=""font-size:120px;"">+</div>
              ","null","fixation",""
"","","","","","image-keyboard-response","136","374540","0.0-17.0-1.3","null","img/pk.png","null","study_pic","PAKISTAN"
"","","","","","html-button-response","137","375276","0.0-17.0-2.3","735","<div style=""font-size:72px;"">
        <p>PAKISTAN</p>
        </div>","0","",""
"","","","","","html-keyboard-response","138","375799","0.0-17.0-0.4","null","<div style=""font-size:120px;"">+</div>
              ","null","fixation",""
"","","","","","image-keyboard-response","139","377056","0.0-17.0-1.4","null","img/do.png","null","study_pic","DOMINICAN REPUBLIC"
"","","","","","html-button-response","140","377844","0.0-17.0-2.4","787","<div style=""font-size:72px;"">
        <p>DOMINICAN REPUBLIC</p>
        </div>","0","",""
"","","","","","html-button-response","141","378949","0.0-18.0","1103","<div style=""font-size:32px;"">
    <p>You can take a short break now.</p>
    <p>Please tap CONTINUE button when you are ready.</p>
    </div>","0","",""
"","","","","","html-keyboard-response","142","379451","0.0-19.0-0.0","null","<div style=""font-size:120px;"">+</div>
              ","null","fixation",""
"","","","","","image-keyboard-response","143","380715","0.0-19.0-1.0","null","img/mh.png","null","study_pic","MARSHALL ISLANDS"
"","","","","","html-button-response","144","381613","0.0-19.0-2.0","895","<div style=""font-size:72px;"">
        <p>MARSHALL ISLANDS</p>
        </div>","0","",""
"","","","","","html-keyboard-response","145","382115","0.0-19.0-0.1","null","<div style=""font-size:120px;"">+</div>
              ","null","fixation",""
"","","","","","image-keyboard-response","146","383378","0.0-19.0-1.1","null","img/kw.png","null","study_pic","KUWAIT"
"","","","","","html-button-response","147","385333","0.0-19.0-2.1","1953","<div style=""font-size:72px;"">
        <p>KUWAIT</p>
        </div>","0","",""
"","","","","","html-keyboard-response","148","385846","0.0-19.0-0.2","null","<div style=""font-size:120px;"">+</div>
              ","null","fixation",""
"","","","","","image-keyboard-response","149","387112","0.0-19.0-1.2","null","img/la.png","null","study_pic","LAOS"
"","","","","","html-button-response","150","387788","0.0-19.0-2.2","675","<div style=""font-size:72px;"">
        <p>LAOS</p>
        </div>","0","",""
"","","","","","html-keyboard-response","151","388302","0.0-19.0-0.3","null","<div style=""font-size:120px;"">+</div>
              ","null","fixation",""
"","","","","","image-keyboard-response","152","389559","0.0-19.0-1.3","null","img/li.png","null","study_pic","LIECHTENSTEIN"
"","","","","","html-button-response","153","390372","0.0-19.0-2.3","812","<div style=""font-size:72px;"">
        <p>LIECHTENSTEIN</p>
        </div>","0","",""
"","","","","","html-keyboard-response","154","390878","0.0-19.0-0.4","null","<div style=""font-size:120px;"">+</div>
              ","null","fixation",""
"","","","","","image-keyboard-response","155","392143","0.0-19.0-1.4","null","img/jo.png","null","study_pic","JORDAN"
"","","","","","html-button-response","156","393597","0.0-19.0-2.4","1451","<div style=""font-size:72px;"">
        <p>JORDAN</p>
        </div>","0","",""
"","","","","","html-button-response","157","395292","0.0-20.0","1694","<div style=""font-size:32px;"">
    <p>You can take a short break now.</p>
    <p>Please tap CONTINUE button when you are ready.</p>
    </div>","0","",""
"","","","","","html-keyboard-response","158","395805","0.0-21.0-0.0","null","<div style=""font-size:120px;"">+</div>
              ","null","fixation",""
"","","","","","image-keyboard-response","159","397060","0.0-21.0-1.0","null","img/cz.png","null","study_pic","CZECHIA"
"","","","","","html-button-response","160","398372","0.0-21.0-2.0","1311","<div style=""font-size:72px;"">
        <p>CZECHIA</p>
        </div>","0","",""
"","","","","","html-keyboard-response","161","398882","0.0-21.0-0.1","null","<div style=""font-size:120px;"">+</div>
              ","null","fixation",""
"","","","","","image-keyboard-response","162","400135","0.0-21.0-1.1","null","img/in.png","null","study_pic","INDIA"
"","","","","","html-button-response","163","401037","0.0-21.0-2.1","901","<div style=""font-size:72px;"">
        <p>INDIA</p>
        </div>","0","",""
"","","","","","html-keyboard-response","164","401550","0.0-21.0-0.2","null","<div style=""font-size:120px;"">+</div>
              ","null","fixation",""
"","","","","","image-keyboard-response","165","402811","0.0-21.0-1.2","null","img/ad.png","null","study_pic","ANDORRA"
"","","","","","html-button-response","166","403710","0.0-21.0-2.2","897","<div style=""font-size:72px;"">
        <p>ANDORRA</p>
        </div>","0","",""
"","","","","","html-keyboard-response","167","404226","0.0-21.0-0.3","null","<div style=""font-size:120px;"">+</div>
              ","null","fixation",""
"","","","","","image-keyboard-response","168","405482","0.0-21.0-1.3","null","img/bb.png","null","study_pic","BARBADOS"
"","","","","","html-button-response","169","406285","0.0-21.0-2.3","802","<div style=""font-size:72px;"">
        <p>BARBADOS</p>
        </div>","0","",""
"","","","","","html-keyboard-response","170","406793","0.0-21.0-0.4","null","<div style=""font-size:120px;"">+</div>
              ","null","fixation",""
"","","","","","image-keyboard-response","171","408050","0.0-21.0-1.4","null","img/ge.png","null","study_pic","GEORGIA"
"","","","","","html-button-response","172","408933","0.0-21.0-2.4","882","<div style=""font-size:72px;"">
        <p>GEORGIA</p>
        </div>","0","",""
"","","","","","html-button-response","173","409968","0.0-22.0","1031","<div style=""font-size:32px;"">
    <p>You can take a short break now.</p>
    <p>Please tap CONTINUE button when you are ready.</p>
    </div>","0","",""
"","","","","","html-button-response","174","412510","0.0-23.0","2538","
    <div style=""font-size:24px;"">
    <div style='float: center;'><img src='img/un.png' width=""320"" height=""240""></img> 
    <p>Now you will be asked if you remember the right name of the country associated to its flag.</p>
    <p>Each flag will be shown once and you will click YES if you remember the right name of the country or NO if you do not.</p>
    <p>If you answer YES, you will be asked if you are confident on the name of the country. Please click ""Completely"" if you are absolutely sure 
    you can remember, or ""Just Guessing if you are not sure your answer is right"".</p>    <p>Tap ""START"" to begin.</p>
    </div>
    ","0","",""
"","","","","","html-keyboard-response","175","414015","0.0-24.0-0.0","null","<div style=""font-size:120px;"">+</div>
              ","null","fixation",""
"","","","","","image-button-response","176","419805","0.0-24.0-1.0","5786","img/sk.png","0","test_pic","SLOVAKIA"
"","","","","","image-button-response","177","421934","0.0-24.0-2.0-0.0","2122","img/sk.png","0","confidence_pic",""
"","","","","","image-keyboard-response","178","423937","0.0-24.0-3.0","null","img/sk.png","null","feedback_pic","SLOVAKIA"
"","","","","","image-button-response","179","429253","0.0-24.0-4.0-0.0","5312","img/sk.png","0","",""
"","","","","","html-keyboard-response","180","429755","0.0-24.0-0.1","null","<div style=""font-size:120px;"">+</div>
              ","null","fixation",""
"","","","","","image-button-response","181","431446","0.0-24.0-1.1","1689","img/bz.png","0","test_pic","BELIZE"
"","","","","","image-button-response","182","433221","0.0-24.0-2.1-0.1","1772","img/bz.png","0","confidence_pic",""
"","","","","","image-keyboard-response","183","435231","0.0-24.0-3.1","null","img/bz.png","null","feedback_pic","BELIZE"
"","","","","","image-button-response","184","443206","0.0-24.0-4.1-0.1","7971","img/bz.png","0","",""
"","","","","","html-keyboard-response","185","443714","0.0-24.0-0.2","null","<div style=""font-size:120px;"">+</div>
              ","null","fixation",""
"","","","","","image-button-response","186","444949","0.0-24.0-1.2","1233","img/cf.png","0","test_pic","CENTRAL AFRICAN REPUBLIC"
"","","","","","image-button-response","187","456518","0.0-24.0-2.2-0.2","11564","img/cf.png","0","confidence_pic",""
"","","","","","image-keyboard-response","188","458521","0.0-24.0-3.2","null","img/cf.png","null","feedback_pic","CENTRAL AFRICAN REPUBLIC"
"","","","","","image-button-response","189","459142","0.0-24.0-4.2-0.2","617","img/cf.png","0","",""
"","","","","","html-keyboard-response","190","459644","0.0-24.0-0.3","null","<div style=""font-size:120px;"">+</div>
              ","null","fixation",""
"","","","","","image-button-response","191","468934","0.0-24.0-1.3","9287","img/ad.png","0","test_pic","ANDORRA"
"","","","","","image-button-response","192","470869","0.0-24.0-2.3-0.3","1933","img/ad.png","0","confidence_pic",""
"","","","","","image-keyboard-response","193","472884","0.0-24.0-3.3","null","img/ad.png","null","feedback_pic","ANDORRA"
"","","","","","image-button-response","194","476925","0.0-24.0-4.3-0.3","4039","img/ad.png","0","",""
"","","","","","html-keyboard-response","195","477439","0.0-24.0-0.4","null","<div style=""font-size:120px;"">+</div>
              ","null","fixation",""
"","","","","","image-button-response","196","487510","0.0-24.0-1.4","10067","img/la.png","0","test_pic","LAOS"
"","","","","","image-button-response","197","488117","0.0-24.0-2.4-0.4","604","img/la.png","0","confidence_pic",""
"","","","","","image-keyboard-response","198","490120","0.0-24.0-3.4","null","img/la.png","null","feedback_pic","LAOS"
"","","","","","image-button-response","199","491429","0.0-24.0-4.4-0.4","1306","img/la.png","0","",""
"","","","","","html-keyboard-response","200","491944","0.0-24.0-0.5","null","<div style=""font-size:120px;"">+</div>
              ","null","fixation",""
"","","","","","image-button-response","201","498253","0.0-24.0-1.5","6307","img/pk.png","0","test_pic","PAKISTAN"
"","","","","","image-button-response","202","500829","0.0-24.0-2.5-0.5","2572","img/pk.png","1","confidence_pic",""
"","","","","","image-keyboard-response","203","502847","0.0-24.0-3.5","null","img/pk.png","null","feedback_pic","PAKISTAN"
"","","","","","html-keyboard-response","204","503359","0.0-24.0-0.6","null","<div style=""font-size:120px;"">+</div>
              ","null","fixation",""
"","","","","","image-button-response","205","510821","0.0-24.0-1.6","7459","img/ch.png","0","test_pic","SWITZERLAND"
"","","","","","image-button-response","206","517621","0.0-24.0-2.6-0.6","6796","img/ch.png","1","confidence_pic",""
"","","","","","image-keyboard-response","207","519636","0.0-24.0-3.6","null","img/ch.png","null","feedback_pic","SWITZERLAND"
"","","","","","html-keyboard-response","208","520153","0.0-24.0-0.7","null","<div style=""font-size:120px;"">+</div>
              ","null","fixation",""
"","","","","","image-button-response","209","527454","0.0-24.0-1.7","7297","img/li.png","0","test_pic","LIECHTENSTEIN"
"","","","","","image-button-response","210","528317","0.0-24.0-2.7-0.7","860","img/li.png","1","confidence_pic",""
"","","","","","image-keyboard-response","211","530334","0.0-24.0-3.7","null","img/li.png","null","feedback_pic","LIECHTENSTEIN"
"","","","","","html-keyboard-response","212","530849","0.0-24.0-0.8","null","<div style=""font-size:120px;"">+</div>
              ","null","fixation",""
"","","","","","image-button-response","213","536701","0.0-24.0-1.8","5849","img/kw.png","0","test_pic","KUWAIT"
"","","","","","image-button-response","214","538653","0.0-24.0-2.8-0.8","1949","img/kw.png","1","confidence_pic",""
"","","","","","image-keyboard-response","215","540657","0.0-24.0-3.8","null","img/kw.png","null","feedback_pic","KUWAIT"
"","","","","","html-keyboard-response","216","541175","0.0-24.0-0.9","null","<div style=""font-size:120px;"">+</div>
              ","null","fixation",""
"","","","","","image-button-response","217","557877","0.0-24.0-1.9","16667","img/mh.png","0","test_pic","MARSHALL ISLANDS"
"","","","","","image-button-response","218","558525","0.0-24.0-2.9-0.9","645","img/mh.png","1","confidence_pic",""
"","","","","","image-keyboard-response","219","560527","0.0-24.0-3.9","null","img/mh.png","null","feedback_pic","MARSHALL ISLANDS"
"","","","","","html-keyboard-response","220","561044","0.0-24.0-0.10","null","<div style=""font-size:120px;"">+</div>
              ","null","fixation",""
"","","","","","image-button-response","221","566413","0.0-24.0-1.10","5352","img/do.png","0","test_pic","DOMINICAN REPUBLIC"
"","","","","","image-button-response","222","569798","0.0-24.0-2.10-0.10","3381","img/do.png","0","confidence_pic",""
"","","","","","image-keyboard-response","223","571805","0.0-24.0-3.10","null","img/do.png","null","feedback_pic","DOMINICAN REPUBLIC"
"","","","","","image-button-response","224","576366","0.0-24.0-4.10-0.10","4557","img/do.png","1","",""
"","","","","","html-keyboard-response","225","576869","0.0-24.0-0.11","null","<div style=""font-size:120px;"">+</div>
              ","null","fixation",""
"","","","","","image-button-response","226","584238","0.0-24.0-1.11","7351","img/by.png","0","test_pic","BELARUS"
"","","","","","image-button-response","227","585925","0.0-24.0-2.11-0.11","1685","img/by.png","0","confidence_pic",""
"","","","","","image-keyboard-response","228","587930","0.0-24.0-3.11","null","img/by.png","null","feedback_pic","BELARUS"
"","","","","","image-button-response","229","588718","0.0-24.0-4.11-0.11","785","img/by.png","1","",""
"","","","","","html-keyboard-response","230","589229","0.0-24.0-0.12","null","<div style=""font-size:120px;"">+</div>
              ","null","fixation",""
"","","","","","image-button-response","231","597829","0.0-24.0-1.12","8598","img/rw.png","0","test_pic","RWANDA"
"","","","","","image-button-response","232","599989","0.0-24.0-2.12-0.12","2156","img/rw.png","0","confidence_pic",""
"","","","","","image-keyboard-response","233","602003","0.0-24.0-3.12","null","img/rw.png","null","feedback_pic","RWANDA"
"","","","","","image-button-response","234","618046","0.0-24.0-4.12-0.12","16003","img/rw.png","1","",""
"","","","","","html-keyboard-response","235","618548","0.0-24.0-0.13","null","<div style=""font-size:120px;"">+</div>
              ","null","fixation",""
"","","","","","image-button-response","236","619942","0.0-24.0-1.13","1391","img/ge.png","0","test_pic","GEORGIA"
"","","","","","image-button-response","237","621006","0.0-24.0-2.13-0.13","1060","img/ge.png","0","confidence_pic",""
"","","","","","image-keyboard-response","238","623009","0.0-24.0-3.13","null","img/ge.png","null","feedback_pic","GEORGIA"
"","","","","","image-button-response","239","624246","0.0-24.0-4.13-0.13","1235","img/ge.png","1","",""
"","","","","","html-keyboard-response","240","624754","0.0-24.0-0.14","null","<div style=""font-size:120px;"">+</div>
              ","null","fixation",""
"","","","","","image-button-response","241","641527","0.0-24.0-1.14","16771","img/bb.png","0","test_pic","BARBADOS"
"","","","","","image-button-response","242","642590","0.0-24.0-2.14-0.14","1059","img/bb.png","0","confidence_pic",""
"","","","","","image-keyboard-response","243","644597","0.0-24.0-3.14","null","img/bb.png","null","feedback_pic","BARBADOS"
"","","","","","image-button-response","244","648942","0.0-24.0-4.14-0.14","4343","img/bb.png","1","",""
"","","","","","html-keyboard-response","245","649445","0.0-24.0-0.15","null","<div style=""font-size:120px;"">+</div>
              ","null","fixation",""
"","","","","","image-button-response","246","652950","0.0-24.0-1.15","3501","img/jo.png","1","test_pic","JORDAN"
"","","","","","image-keyboard-response","247","654964","0.0-24.0-3.15","null","img/jo.png","null","feedback_pic","JORDAN"
"","","","","","html-keyboard-response","248","655469","0.0-24.0-0.16","null","<div style=""font-size:120px;"">+</div>
              ","null","fixation",""
"","","","","","image-button-response","249","666319","0.0-24.0-1.16","10846","img/nl.png","1","test_pic","NETHERLANDS"
"","","","","","image-keyboard-response","250","668326","0.0-24.0-3.16","null","img/nl.png","null","feedback_pic","NETHERLANDS"
"","","","","","html-keyboard-response","251","668843","0.0-24.0-0.17","null","<div style=""font-size:120px;"">+</div>
              ","null","fixation",""
"","","","","","image-button-response","252","670094","0.0-24.0-1.17","1248","img/in.png","1","test_pic","INDIA"
"","","","","","image-keyboard-response","253","672098","0.0-24.0-3.17","null","img/in.png","null","feedback_pic","INDIA"
"","","","","","html-keyboard-response","254","672605","0.0-24.0-0.18","null","<div style=""font-size:120px;"">+</div>
              ","null","fixation",""
"","","","","","image-button-response","255","675350","0.0-24.0-1.18","2743","img/cz.png","1","test_pic","CZECHIA"
"","","","","","image-keyboard-response","256","677365","0.0-24.0-3.18","null","img/cz.png","null","feedback_pic","CZECHIA"
"","","","","","html-keyboard-response","257","677879","0.0-24.0-0.19","null","<div style=""font-size:120px;"">+</div>
              ","null","fixation",""
"","","","","","image-button-response","258","680686","0.0-24.0-1.19","2804","img/kz.png","1","test_pic","KAZAKHSTAN"
"","","","","","image-keyboard-response","259","682695","0.0-24.0-3.19","null","img/kz.png","null","feedback_pic","KAZAKHSTAN"
"true","","","","","fullscreen","260","682731","0.0-25.0","","","","",""
"","","","","","html-keyboard-response","261","689520","0.0-26.0","6787","
    <div style=""font-size:48px;"">
    <p>This is the end of the experiment.</p>
    <p>Thank you very much for your participation.</p>
    </div>","enter","",""
